Folder: AutoML_for_shearwall

Note: README.md
# AutoML_for_shear_wall

File: data_stage_2.csv
Author,Yield Stresses of Vertical Bars (MPa),Yield Stresses of Horizontal Reinforcement (MPa),Yield Stress of Confinement Reinforcement (MPa),Concrete Compressive Strength (MPa),Web Vertical Reinforcement Ratio,Boundary Region Vertical Reinforcement Ratio,Web Horizontal Reinforcement Ratio,Boundary Region (Volume) Horizontal Reinforcement Ratio,Section,lw/tw,Aspect ratio,Ab/Ag,P/fcAg,FailureMode,,,,,Experiment ID
Hirosawa (1975),284.2,284.2,294,31.9,0.0367,0.047,0.0367,0.001570796,B,45,1.06667,0.307692,0,3,,,,,Tanabe_2-4 (100)
Massone et al. (2009),351,351,351,33,0.00256,0.0133,0.00278,0,R,10,1,0,0,4,,,,,WS-T4-S2
Pilakoutas et al. (1995),500,400,400,38.6,0.0031,0.0283,0.0031,0.0017,R,10,2,0,0,2,,,,,SW6
Hirosawa (1975),571.3,571.3,284.2,20.8,0.0033,0.0177,0.0033,0.000567232,B,27,0.5,0.2,0,3,,,,,Sugano_2-5 (144)
Mansur et al. (1992),429,429,460,31.4,0.0055,0.0314,0.0055,0.0028,B,11.6667,0.857143,0.243902,0,2,,,,,W3
Barda et al. (1977),544,512.6,482.3,27,0.005,0.041,0.005,0.003652109,F,16.6863,0.559929,0.208761,0,3,,,,,B3-2
SLDRCE (2008),526.77,345,345,37.3,0.007,0.0372,0.0084,0.014,R,12,2.61111,0,0,2,,,,,Zhou_SW2
Palermo and Vecchio (2002),605,605,605,18.8,0.0079,0.003,0.0073,0.001,F,35.9333,0.749536,0.370545,0.0773343,4,,,,,DP2
Mansur et al. (1992),359,359,460,31.4,0.0062,0.0314,0.0062,0.0028,B,11.6667,0.857143,0.243902,0,2,,,,,W4
Oesterle et al. (1976),501.6,501.6,501.6,45.3,0.0029,0.0367,0.0063,0.0135,B,12.6961,3.5305,0.292403,0,2,,,,,B5
Hirosawa (1975),284.2,284.2,294,35.3,0.0092,0.047,0.0092,0.001570796,B,11.25,1.06667,0.142857,0,3,,,,,Tanabe_2-12 (108)
Oesterle et al. (1979),460.9,460.9,460.9,44.1,0.0029,0.0367,0.0063,0.0135,B,12.6961,3.5305,0.292403,0.0852073,2,,,,,B9
Hirosawa (1975),406.7,419,419,20.8,0.005,0.0568,0.0026,0.009296853,R,10.625,1,0,0.0942308,3,,,,,Hirosawa_7-2 (73)
Hirosawa (1975),294,294,294,45.6,0.0244,0.047,0.0244,0.001570796,B,45,1.06667,0.307692,0,3,,,,,Tanabe_4-3 (120)
Salonikios et al. (1999),610,610,610,23.9,0.0028,0.013,0.0028,0.017,R,12,1,0,0.07,4,,,,,LSW3
Tomazevic et al. (1996),478,478,538,54.8,0.0026,0.023,0.0026,0,R,19.4,1.4433,0,0.0766423,2,,,,,SW23N2
Hidalgo et al. (2002),471,471,471,15.7,0.0026,0.0472222,0.0025,0.0025,R,10.8333,0.692308,0,0,3,,,,,8
Park et al. (2015),653,667,667,46.5,0.0036,0.097,0.0025,0.0624,R,7.5,1.16667,0,0.06953405,3,,,,,S7
Barda et al. (1977),542,495.4,499.5,29,0.005,0.018,0.005,0.003652109,F,16.6863,0.559929,0.208761,0,2,,,,,B1-1
Hirosawa (1975),284.2,284.2,294,34.9,0.0183,0.047,0.0183,0.001570796,B,22.5,1.06667,0.222222,0,3,,,,,Tanabe_2-7 (103)
Greifenhagen and Lestuzzi (2005),504,745,504,20.1,0.003,0,0.003,0,R,11.25,0.766667,0,0.09673853,2,,,,,M3
Massone et al. (2009),424,424,448.2,25.5,0.00428,0.0312,0.00278,0,R,10,1,0,0,3,,,,,WS-T1-S1
Gebreyohaness et al (2014),351,351,472,21.4,0.0013,0.014,0.0013,0,R,5.65217,1.23077,0,0,3,,,,,WSS2
Kimura and Sugano (1996),580,658,658,42.5,0.00785,0.01178,0.01616,0.01178,B,17.5,1.71429,0,0.259559,2,,,,,W4N18C
Tran (2012),477,443,423,55.8,0.0073,0.0606,0.0073,0.0129738,R,8.01974,1.50041,0,0.0641257,4,,,,,RW-A15-P10-S78
Cheng et al. (2016),786,786,453,38,0.0015,0.0177,0.0015,0.0283,R,10.0099,1,0,0,4,,,,,M115
Hidalgo et al. (2002),314,314,314,17.6,0.0026,0.0472222,0.0013,0.0013,R,10.8333,0.692308,0,0,3,,,,,6
Terzioglu et al. (2018),584,584,473,27,0.0034,0.0515,0.0034,0.0034,R,12.5,0.5,0,0.0987654,2,,,,,T1-N10-S1-11
Hirosawa (1975),323.4,323.4,401.8,19.9,0.007,0.0071,0.0073,0.000569661,F,16.087,0.581081,0.25276,0,3,,,,,Kokusho_2-5 (46)
Teng and Chandra (2016),630,578,617,110.7,0.0028,0.0388,0.0075,0.0253,F,7.6,2.89474,0.306122,0.05,3,,,,,J7
Barda et al. (1977),551,498.8,485.7,16.3,0.005,0.064,0.005,0.003652109,F,16.6863,0.559929,0.208761,0,3,,,,,B2-1
Palermo and Vecchio (2002),605,605,605,21.7,0.0079,0.0032,0.0073,0.001,F,35.9333,0.749536,0.370545,0.0695657,4,,,,,DP1
Hirosawa (1975),401.8,401.8,401.8,17.9,0.0047,0.0071,0.0054,0.000707761,F,16.087,0.581081,0.25276,0,3,,,,,Kokusho_2-2 (43)
Hirosawa (1975),382.2,382.2,382.2,16.9,0.0036,0.0068,0.0041,0.000684169,F,12.3333,0.581081,0.223881,0,3,,,,,Kokusho_1-3 (37)
Hidalgo et al. (2002),366,366,366,18.8,0.0025,0.0625,0.0025,0.0025,R,21.25,0.352941,0,0,2,,,,,16
Park et al. (2015),653,667,667,70.3,0.0066,0.097,0.0051,0,R,7.5,1.16667,0,0.06970128,3,,,,,S3
Kimura and Sugano (1996),580,658,658,72.8,0.00785,0.01178,0.01131,0.01178,B,17.5,1.71429,0,0.151528,2,,,,,W8N18
Cheng et al. (2016),806,806,453,44,0.0041,0.0265,0.0041,0.0283,R,10.0099,1,0,0,4,,,,,H115
Barda et al. (1977),528,496.1,496.1,21.2,0.0025,0.041,0.005,0.003652109,F,16.6863,0.559929,0.208761,0,3,,,,,B6-4
Tran (2012),472,516,423,47.1,0.0027,0.0323,0.0027,0.013,R,8.01974,2,0,0.0734497,2,,,,,RW-A20-P10-S38
Hirosawa (1975),382.2,382.2,382.2,22.4,0.0036,0.0068,0.0041,0.000684169,F,12.3333,0.581081,0.223881,0,3,,,,,Kokusho_1-2 (36)
Nakamura et al. (2009),296,296,296,41.8,0.0156,0.0156,0.0156,0.0156,F,25.6667,0.727273,0.254777,0.0465368,4,,,,,I-2
Hube et al. (2017),446,446,446,28.9,0.002,0.001964126,0.002,0.008,R,16,1.09375,0,0,2,,,,,WSL5
Dabbagh (2005),500,500,500,53.72,0.013,0.0429766,0.013,0.001368736,F,10.6667,1.25,0.277778,0.112403,4,,,,,SW2
Cheng et al. (2016),453,453,453,39,0.0031,0.0316,0.0031,0.0283,R,10.0099,1,0,0,4,,,,,M60
Hirosawa (1975),323.4,323.4,323.4,40.8,0.0122,0.047,0.0122,0.001570796,B,11.25,1.06667,0.142857,0,3,,,,,Tanabe_4-12 (129)
Kabeyasawa and Matsumoto (1992),776,1262,1262,74.88,0.004850206,0.01888,0.01416,0.01128,B,16.25,2.30769,0.217391,0.102425,2,,,,,NW-2
Hirosawa (1975),323.4,323.4,323.4,43.1,0.0163,0.047,0.0163,0.001570796,B,15,1.06667,0.173913,0,3,,,,,Tanabe_4-8 (125)
Terzioglu et al. (2018),584,584,473,24,0.0034,0.0515,0.0034,0.0034,R,12.5,0.5,0,0,2,,,,,T1-S2-9
Hirosawa (1975),284.2,284.2,284.2,20.5,0.0069,0.0177,0.0066,0.000567232,B,27,0.5,0.2,0,3,,,,,Sugano_2-6 (145)
Hirosawa (1975),294,294,294,40,0.0122,0.047,0.0122,0.001570796,B,15,1.06667,0.173913,0,3,,,,,Tanabe_3-5 (114)
Terzioglu et al. (2018),481,481,440,25.8,0.0068,0.0515,0.0068,0.0068,R,12.5,0.5,0,0,2,,,,,T2-S2-3
Hirosawa (1975),323.4,323.4,323.4,45.1,0.0244,0.047,0.0244,0.001570796,B,22.5,1.06667,0.222222,0,3,,,,,Tanabe_4-6 (123)
Tomazevic et al. (1996),469,469,465,41.1,0.0038,0.06,0.0038,0,R,19.4,1.4433,0,0.0510949,2,,,,,SW60N1
Kabeyasawa and Matsumoto (1992),726,1233,1233,44.4,0.001991405,0.0185419,0.00984,0.00784,B,16.25,2.30769,0.217391,0.134352,2,,,,,NW-3
Aanasopoulou (2010),322.612,322.612,231.24,36.494,0.0083,0.01,0.0083,0.131143,R,10,1,0,0,4,,,,,S4
Hidalgo et al. (2002),367,367,367,16.4,0.0025,0.0791667,0.0025,0.0025,R,16.25,0.692308,0,0,2,,,,,10
Tomazevic et al. (1996),469,469,465,41.1,0.0038,0.06,0.0038,0,R,19.4,1.4433,0,0.10219,2,,,,,SW60N2
Hirosawa (1975),382.2,382.2,382.2,16.1,0.0036,0.0068,0.0041,0.000684169,F,12.3333,0.581081,0.223881,0,3,,,,,Kokusho_1-6 (40)
Gebreyohaness et al (2014),351,351,488,16.2,0.0013,0.014,0.0011,0,R,5.65217,1.84615,0,0,2,,,,,WPS4
Hube et al. (2014),445.6,523.9,445.6,27.4,0.0067,0.0049,0.0046,0,R,9.33333,2.5,0,0.150156,2,,,,,W4
Hwang et al. (2004),364,364,571,13.9,0.0019,0.019,0.0019,0.0102634,B,29.1667,0.442857,0,0,2,,,,,WF-12
Christidis and Trezos (2017),572,568,568,31.12,0.01206,0.0123148,0.00113,0,R,6,1.86667,0,0,2,,,,,W11
Hube et al. (2017),446,604,604,28.9,0.0025,0.002455157,0.0025,0.006,R,18.8235,1.09375,0,0,3,,,,,WSL7
Hirosawa (1975),323.4,323.4,401.8,17.9,0.0044,0.0071,0.005,0.000569661,F,14.8,0.581081,0.24234,0,3,,,,,Kokusho_2-3 (44)
Hirosawa (1975),323.4,323.4,323.4,43.7,0.0122,0.047,0.0122,0.001570796,B,11.25,1.06667,0.142857,0,3,,,,,Tanabe_4-11 (128)
Hirosawa (1975),284.2,284.2,294,34.3,0.0122,0.047,0.0122,0.001570796,B,15,1.06667,0.173913,0,3,,,,,Tanabe_2-9 (105)
Hirosawa (1975),323.4,323.4,401.8,16.8,0.0073,0.0152,0.0072,0.000569661,F,16.8182,1.08108,0.258314,0,3,,,,,Kokusho_3-8 (55)
Hirosawa (1975),294,294,294,46.1,0.0122,0.047,0.0122,0.001570796,B,15,1.06667,0.173913,0,3,,,,,Tanabe_3-6 (115)
Tomazevic et al. (1996),478,478,538,41.1,0.0026,0.023,0.0026,0.001679157,R,19.4,1.4433,0,0.10219,2,,,,,SW23C2
Tokunaga and Nakachi (2012),393,372,393,32.5,0.0291,0,0.0116,0,R,4.77778,1.51163,0,0.39992,2,,,,,No4
Tomazevic et al. (1996),469,469,465,41.1,0.0038,0.06,0.0038,0.001647541,R,19.4,1.4433,0,0.0510949,2,,,,,SW60C1
Liu et al. (2009),475,544.7,544.3,56.4,0.0147,0.0555,0.0184,0.0226,B,6.68421,5,0.384848,0.0611608,2,,,,,M10C
Villalobos (2014),434,530.9,482.6,31.4,0.004,0.049,0.0055,0.0123,R,7.50739,2.1752,0,0.0914908,2,,,,,W60C
Hirosawa (1975),401.8,401.8,401.8,14.2,0.004,0.0152,0.0038,0.000707761,F,13.7037,1.08108,0.232745,0,3,,,,,Kokusho_3-3 (50)
Hirosawa (1975),294,294,294,42.9,0.0183,0.047,0.0183,0.001570796,B,22.5,1.06667,0.222222,0,3,,,,,Tanabe_3-3 (112)
Hirosawa (1975),284.2,284.2,294,32.8,0.0092,0.047,0.0092,0.001570796,B,11.25,1.06667,0.142857,0,3,,,,,Tanabe_2-11 (107)
Gebreyohaness et al (2014),490,490,631,20.2,0.002,0.014,0.0017,0,R,8.66667,1.84615,0,0.0507743,3,,,,,WPS9
Hirosawa (1975),323.4,323.4,401.8,16.2,0.005,0.0152,0.0048,0.000569661,F,16.8182,1.08108,0.258314,0,3,,,,,Kokusho_3-5 (52)
Hidalgo et al. (2002),366,366,366,17.6,0.0026,0.0606667,0.0026,0.0026,R,13,0.692308,0,0,2,,,,,9
Chiou et al. (2004),458.72,458.84,458.84,23.45,0.0028,0.0109675,0.001999477,0.002999215,B,12.5,1.33333,0.003448276,0,2,,,,,MWF2
Hube et al. (2017),446,601,601,28.9,0.0026,0.002553363,0.0026,0.008,R,16,1.09375,0,0,3,,,,,WSL3
Gebreyohaness et al (2014),530,530,667,18.4,0.002,0,0.0018,0,R,8.66667,1.23077,0,0.05574136,3,,,,,WPS1
Dabbagh (2005),500,500,500,60.83,0.005,0.0504237,0.005,0.00078566,F,10.6667,1.25,0.277778,0.107095,3,,,,,SW5

File: Shear Wall dataset.csv
Author,Yield Stresses of Vertical Bars (MPa),Yield Stresses of Horizontal Reinforcement (MPa),Yield Stress of Confinement Reinforcement (MPa),Concrete Compressive Strength (MPa),Web Vertical Reinforcement Ratio,Boundary Region Vertical Reinforcement Ratio,Web Horizontal Reinforcement Ratio,Boundary Region (Volume) Horizontal Reinforcement Ratio,Section,lw/tw,Aspect ratio,Ab/Ag,P/fcAg,FailureMode,Experiment ID
Hirosawa (1975),284.2,284.2,294,31.9,0.0367,0.047,0.0367,0.001570796,B,45,1.06667,0.307692,0,2,Tanabe_2-4 (100)
Aanasopoulou (2010),316.965,316.965,243.522,29.9577,0.005,0.012,0.005,0.143175,R,10,1.3,0,0,1,S10
Massone et al. (2009),351,351,351,33,0.00256,0.0133,0.00278,0,R,10,1,0,0,2,WS-T4-S2
Pilakoutas et al. (1995),500,400,400,38.6,0.0031,0.0283,0.0031,0.0017,R,10,2,0,0,2,SW6
Hirosawa (1975),571.3,571.3,284.2,20.8,0.0033,0.0177,0.0033,0.000567232,B,27,0.5,0.2,0,2,Sugano_2-5 (144)
Mansur et al. (1992),429,429,460,31.4,0.0055,0.0314,0.0055,0.0028,B,11.6667,0.857143,0.243902,0,2,W3
Barda et al. (1977),544,512.6,482.3,27,0.005,0.041,0.005,0.003652109,F,16.6863,0.559929,0.208761,0,2,B3-2
SLDRCE (2008),526.77,345,345,37.3,0.007,0.0372,0.0084,0.014,R,12,2.61111,0,0,2,Zhou_SW2
Palermo and Vecchio (2002),605,605,605,18.8,0.0079,0.003,0.0073,0.001,F,35.9333,0.749536,0.370545,0.0773343,2,DP2
Kuang and Ho (2008),520,520,520,31.3,0.0092,0,0.0105,0.021,R,12,1,0,0,1,U1.0-BC
Mansur et al. (1992),359,359,460,31.4,0.0062,0.0314,0.0062,0.0028,B,11.6667,0.857143,0.243902,0,2,W4
Lefas et al. (1990a),470,520,420,40.48,0.025,0.033,0.008,0.009,R,10,2.11538,0,0.106415,1,SW22
Oesterle et al. (1976),501.6,501.6,501.6,45.3,0.0029,0.0367,0.0063,0.0135,B,12.6961,3.5305,0.292403,0,2,B5
Hirosawa (1975),284.2,284.2,294,35.3,0.0092,0.047,0.0092,0.001570796,B,11.25,1.06667,0.142857,0,2,Tanabe_2-12 (108)
Hirosawa (1975),261.7,261.7,294,18.6,0.0024,0.0252,0.0024,0.000615752,B,13.3333,1.75,0.3125,0,1,Hirosawa_2-2 (11)
Oesterle et al. (1979),460.9,460.9,460.9,44.1,0.0029,0.0367,0.0063,0.0135,B,12.6961,3.5305,0.292403,0.0852073,2,B9
Hirosawa (1975),406.7,414.9,414.9,20.8,0.004,0.0844,0.0108,0.0371874,R,5.3125,2,0,0.0942308,1,Hirosawa_9-4 (85)
Hirosawa (1975),406.7,419,419,20.8,0.005,0.0568,0.0026,0.009296853,R,10.625,1,0,0.0942308,2,Hirosawa_7-2 (73)
Hirosawa (1975),294,294,294,45.6,0.0244,0.047,0.0244,0.001570796,B,45,1.06667,0.307692,0,2,Tanabe_4-3 (120)
SLDRCE (2008),352,392,392,37.7,0.00534005,0.0223,0.005980855,0.009345087,R,8,2,0,0.417282,1,Zhang_SW5-3
Salonikios et al. (1999),610,610,610,23.9,0.0028,0.013,0.0028,0.017,R,12,1,0,0.07,2,LSW3
Han et al. (2002),395,335,335,36.9,0.0032,0.0127,0.0028,0.0099,R,7.5,3,0,0.1,1,W3
Tomazevic et al. (1996),478,478,538,54.8,0.0026,0.023,0.0026,0,R,19.4,1.4433,0,0.0766423,2,SW23N2
Lefas et al. (1990a),470,520,420,34.64,0.024,0.031,0.011,0.012,R,10.7143,1.1,0,0.101727,1,SW15
Hidalgo et al. (2002),471,471,471,15.7,0.0026,0.0472222,0.0025,0.0025,R,10.8333,0.692308,0,0,2,8
Lu et al. (2017),300,300,300,40.5,0.0053,0,0.0025,0,R,9.33333,2,0,0.0358689,1,C1
Park et al. (2015),653,667,667,46.5,0.0036,0.097,0.0025,0.0624,R,7.5,1.16667,0,0.06953405,2,S7
Barda et al. (1977),542,495.4,499.5,29,0.005,0.018,0.005,0.003652109,F,16.6863,0.559929,0.208761,0,2,B1-1
Hirosawa (1975),284.2,284.2,294,34.9,0.0183,0.047,0.0183,0.001570796,B,22.5,1.06667,0.222222,0,2,Tanabe_2-7 (103)
SLDRCE (2008),352,392,392,19.7,0.004843924,0.0167,0.004650167,0.007265886,R,8,2,0,0.432587,1,Zhang_SW1-4
Hirosawa (1975),406.7,421.3,421.3,20.8,0.004,0.0991,0.0057,0.0185937,R,5.3125,2,0,0.0942308,1,Hirosawa_9-1 (82)
Greifenhagen and Lestuzzi (2005),504,745,504,20.1,0.003,0,0.003,0,R,11.25,0.766667,0,0.09673853,2,M3
Massone et al. (2009),424,424,448.2,25.5,0.00428,0.0312,0.00278,0,R,10,1,0,0,2,WS-T1-S1
Lu et al. (2018),300,300,300,40.5,0.0053,0,0.0025,0,R,9.33333,2,0,0.0400276,1,C2
Park et al. (2015),653,667,667,46.5,0.0036,0.02,0.0025,0.062,R,7.5,1.16667,0,0.06953405,1,S8
Kimura and Sugano (1996),580,658,658,79,0.00785,0.01178,0.01131,0.01178,B,17.5,1.71429,0,0.10087,2,W8N13
Christidis and Trezos (2017),564,568,568,25.37,0.01206,0.0123294,0.00113,0,R,6,1.86667,0,0,2,W13
Gebreyohaness et al (2014),351,351,472,21.4,0.0013,0.014,0.0013,0,R,5.65217,1.23077,0,0,2,WSS2
Christidis and Trezos (2017),580,588,588,31.12,0.01206,0.0118959,0.00201,0,R,6,1.86667,0,0,2,W9
Hube et al. (2017),446,632,632,28.9,0.0014,0.001374888,0.0014,0.008,R,16,1.09375,0,0,2,WSL4
Kimura and Sugano (1996),580,658,658,42.5,0.00785,0.01178,0.01616,0.01178,B,17.5,1.71429,0,0.259559,2,W4N18C
Hirosawa (1975),333.2,333.2,382.2,16.9,0.0037,0.0068,0.0042,0.000596455,F,12.3333,0.581081,0.223881,0,2,Kokusho_1-4 (38)
Lefas et al. (1990a),470,520,420,24.08,0.025,0.033,0.004,0.009,R,10,2.11538,0,0,1,SW26
Hidalgo et al. (2002),402,402,402,19.6,0.0025,0.0472222,0.0025,0.0025,R,8.33333,1,0,0,2,2
Zhang and Wang (2000),305,305,305,34.7,0.0067,0.0153,0.0101,0.08,R,7,2.14286,0,0.283429,1,SRCW12
Tran (2012),477,443,423,55.8,0.0073,0.0606,0.0073,0.0129738,R,8.01974,1.50041,0,0.0641257,2,RW-A15-P10-S78
Villalobos (2014),434,530.9,434,30.3,0.004,0.049,0.0055,0,R,7.50739,2.1752,0,0.0948123,1,WMCN
SLDRCE (2008),478,325,325,18.3,0.0099,0.0503,0.0101,0.0101,R,24.8806,0.559688,0,0.195703,2,Jiang_SSW-3
Hirosawa (1975),323.4,323.4,323.4,45.4,0.0163,0.047,0.0163,0.001570796,B,15,1.06667,0.173913,0,2,Tanabe_4-7 (124)
Zhang and Wang (2000),305,305,305,40.2,0.0067,0.0065,0.0101,0.12,R,7,2.14286,0,0.278607,1,SW8
Cheng et al. (2016),786,786,453,38,0.0015,0.0177,0.0015,0.0283,R,10.0099,1,0,0,2,M115
Teng and Chandra (2016),630,610,617,96.8,0.0075,0.0388,0.0028,0.0253,F,7.6,1.57895,0.306122,0.05,2,J2
Ghorbani-Renani et al. (2009),450,450,450,47,0.0071,0.0356,0.0067,0.0264,R,6.52381,2.08029,0,0,1,B2C
Tokunaga and Nakachi (2012),393,372,393,35.7,0.0291,0,0.0116,0,R,4.77778,1.51163,0,0.400263,2,H1
Lefas et al. (1990a),470,520,420,36,0.025,0.033,0.008,0.009,R,10,2.11538,0,0.213675,1,SW25
Hube et al. (2014),445.6,608.9,445.6,27.4,0.0072,0.0045,0.0056,0,R,7,2.5,0,0.149635,1,W9
Hidalgo et al. (2002),314,314,314,17.6,0.0026,0.0472222,0.0013,0.0013,R,10.8333,0.692308,0,0,2,6
Nakamura et al. (2009),296,296,296,39.3,0.0116,0.0116,0.0116,0.0116,F,25.6667,0.727273,0.254777,0.0498874,2,I-1
SLDRCE (2008),478,325,325,18.3,0.0099,0.031,0.0101,0.0101,R,24.8806,0.559688,0,0.0978517,2,Jiang_SSW-2
Abdulridha and Palermo (2017),425,425,425,30.5,0.0088,0.0133,0.0088,0.0088,R,6.66667,2.2,0,0,1,W1-SR
Zhou et.(2010),345,345,523.7,37.33,0.00698,0.0372,0.00837,0.014,R,12,2.5,0,0.0793722,1,SW-1
Terzioglu et al. (2018),584,584,473,27,0.0034,0.0515,0.0034,0.0034,R,12.5,0.5,0,0.0987654,2,T1-N10-S1-11
Lefas et al. (1990a),470,520,420,41.84,0.024,0.031,0.011,0.012,R,10.7143,1.1,0,0,1,SW11
Tran (2012),472,516,423,48.8,0.0032,0.0323,0.0032,0.0129566,R,8.01974,1.50041,0,0.0771948,1,RW-A15-P10-S51
Hirosawa (1975),396.9,396.9,284.2,20.9,0.0077,0.0177,0.0074,0.000567232,B,27,0.5,0.2,0,2,Sugano_2-8 (147)
Hirosawa (1975),406.7,414.9,414.9,17.8,0.004,0.0844,0.0108,0.0371874,R,5.3125,2,0,0.110112,1,Hirosawa_9-3 (84)
Hsiao et al.(2008),364.56,364.56,515.48,28.6,0.0036,0.004595717,0.0036,0.004036044,B,31.25,0.8,0,0,2,MW1
Hirosawa (1975),323.4,323.4,401.8,19.9,0.007,0.0071,0.0073,0.000569661,F,16.087,0.581081,0.25276,0,2,Kokusho_2-5 (46)
Hirosawa (1975),294,294,294,46.8,0.0244,0.047,0.0244,0.001570796,B,45,1.06667,0.307692,0,2,Tanabe_4-2 (119)
[...]
Hirosawa (1975),406.7,414.9,414.9,18.3,0.005,0.0251,0.0108,0.0371874,R,10.625,1,0,0.107104,1,Hirosawa_8-4 (81)
Pilakoutas et al. (1995),540,400,400,38.9,0.0031,0.0293,0.0031,0.0045,R,10,2,0,0,1,SW9
Oesterle et al. (1976),534.7,534.7,534.7,46.4,0.0025,0.04,0.0031,0.0207,R,18.6765,2.4,0,0,1,R2
Barda et al. (1977),539,500.9,500.9,25.7,0.005,0.041,0.005,0.003652109,F,16.6863,0.279671,0.208761,0,2,B7-5
Lefas et al. (1990a),470,520,420,38.24,0.025,0.033,0.008,0.009,R,10,2.11538,0,0.2123,1,SW23
Hube et al. (2017),446,604,604,28.9,0.002,0.001964126,0.002,0.003,R,16,1.09375,0,0,2,WSL2
Chiou et al. (2004),458.72,458.84,458.84,23.45,0.0038,0.0109675,0.001999477,0.002999215,B,12.5,1.33333,0.003448276,0,2,MWF1
Hirosawa (1975),406.7,419,419,17.2,0.005,0.0568,0.0026,0.009296853,R,10.625,1,0,0.113953,2,Hirosawa_7-1 (72)
Lefas et al. (1990b),470,520,420,49.2,0.015,0.033,0.0035,0.009,R,10,2.11538,0,0,1,SW33
SLDRCE (2008),352,392,392,37.7,0.006230058,0.0167,0.005980855,0.009345087,R,8,1.5,0,0.417282,1,Zhang_SW2-2
Dazio et al. (2009),583.1,484.9,484.9,40.5,0.003,0.0132,0.0025,0.0109,R,13.3333,2.28,0,0.0568724,1,WSH2
Tomazevic et al. (1996),478,478,538,41.1,0.0026,0.023,0.0026,0.001679157,R,19.4,1.4433,0,0.0510949,2,SW23C1
Villalobos (2014),434,530.9,482.6,31.4,0.004,0.049,0.0055,0.0123,R,7.50739,2.1752,0,0.0914908,2,W60C
SLDRCE (2008),352,348,348,37.7,0.006230058,0.0167,0.002137772,0.003340268,R,8,2,0,0.417282,1,Zhang_SW6-1
Hirosawa (1975),401.8,401.8,401.8,14.2,0.004,0.0152,0.0038,0.000707761,F,13.7037,1.08108,0.232745,0,2,Kokusho_3-3 (50)
SLDRCE (2008),352,392,392,37.7,0.006230058,0.0167,0.005980855,0.009345087,R,8,2,0,0.417282,1,Zhang_SW2-3
Oesterle et al. (1976),478.5,478.5,478.5,47.3,0.0029,0.0111,0.0031,0.0128,B,12.6961,3.5305,0.292403,0,1,B3
Jiang et al. (2013),450.1,435.2,450.1,28,0.0066,0.0125,0.0066,0.00222,F,8,2.5,0.277778,0.2,1,SW2
Salonikios et al. (1999),585,610,610,22.2,0.0057,0.017,0.0057,0.017,R,12,1,0,0,2,LSW1
Hirosawa (1975),294,294,294,42.9,0.0183,0.047,0.0183,0.001570796,B,22.5,1.06667,0.222222,0,2,Tanabe_3-3 (112)
Kabeyasawa and Matsumoto (1992),726,1233,1233,52.16,0.003899835,0.03184,0.00984,0.00784,B,16.25,2.30769,0.217391,0.130702,2,NW-6
Salonikios et al. (1999),610,610,610,26.1,0.0057,0.017,0.0057,0.011,R,12,1.5,0,0,1,MSW1
Villalobos (2014),434,530.9,434,33.8,0.004,0.049,0.0055,0,R,7.50739,2.1752,0,0.0849945,2,W60N
Gebreyohaness et al (2014),490,490,631,20.2,0.002,0.014,0.0017,0,R,8.66667,1.84615,0,0.0507743,2,WPS9
Hube et al. (2017),446,446,446,28.9,0.0025,0.002455157,0.0025,0.006,R,18.8235,1.09375,0,0,2,WSL9
Kabeyasawa and Matsumoto (1992),726,1233,1233,48.24,0.003899835,0.0246702,0.00984,0.00784,B,16.25,2.30769,0.217391,0.123657,2,NW-5
Lefas et al. (1990b),470,520,420,35.2,0.015,0.033,0.0035,0.009,R,10,2.11538,0,0,1,SW31
Mohamed et al. (2014),400,400,400,39.2,0.0023,0.0063,0.0053,0.0063,R,7.5,2.33333,0,0.07,1,ST15
Hidalgo et al. (2002),366,366,366,17.6,0.0026,0.0606667,0.0026,0.0026,R,13,0.692308,0,0,2,9
Hirosawa (1975),571.3,571.3,284.2,20.8,0.0066,0.0177,0.0066,0.000567232,B,27,0.5,0.2,0,2,Sugano_2-2 (141)
Lefas et al. (1990a),470,520,420,33.68,0.024,0.031,0.011,0.012,R,10.7143,1.1,0,0,1,SW14
Hwang et al. (2004),443,443,571,22.6,0.0042,0.019,0.0042,0.0124909,B,29.1667,0.442857,0,0,2,WF-15
Kuang and Ho (2008),520,520,520,34.9,0.0092,0,0.0105,0,R,12,1,0,0,1,U1.5
Oesterle et al. (1979),463.7,463.7,463.7,45.6,0.0031,0.0435,0.0063,0.0143,F,16.6863,2.68625,0.258924,0.0725764,2,F2
Gebreyohaness et al (2014),530,530,667,18.4,0.002,0,0.0018,0,R,8.66667,1.23077,0,0.05574136,2,WPS1
Dabbagh (2005),500,500,500,60.83,0.005,0.0504237,0.005,0.00078566,F,10.6667,1.25,0.277778,0.107095,2,SW5